Stim,Key,Ctx_Color,KeyNum,imStim,X_Pos,Y_Pos,Hand,Check,Cross,Import_File.thisRepN,Import_File.thisTrialN,Import_File.thisN,Import_File.thisIndex,Instr_Exp_Bool.thisRepN,Instr_Exp_Bool.thisTrialN,Instr_Exp_Bool.thisN,Instr_Exp_Bool.thisIndex,RT_Bool_Hand.thisRepN,RT_Bool_Hand.thisTrialN,RT_Bool_Hand.thisN,RT_Bool_Hand.thisIndex,TR_Bool_Hand.thisRepN,TR_Bool_Hand.thisTrialN,TR_Bool_Hand.thisN,TR_Bool_Hand.thisIndex,TR_Block_Hand.thisRepN,TR_Block_Hand.thisTrialN,TR_Block_Hand.thisN,TR_Block_Hand.thisIndex,TR_Iter_Hand.thisRepN,TR_Iter_Hand.thisTrialN,TR_Iter_Hand.thisN,TR_Iter_Hand.thisIndex,TR_Feedback_Bool_Hand.thisRepN,TR_Feedback_Bool_Hand.thisTrialN,TR_Feedback_Bool_Hand.thisN,TR_Feedback_Bool_Hand.thisIndex,TR_Penalty_Bool_Hand.thisRepN,TR_Penalty_Bool_Hand.thisTrialN,TR_Penalty_Bool_Hand.thisN,TR_Penalty_Bool_Hand.thisIndex,stim_key_map_ctx1,stim_key_map_ctx2,stim_key_remap_ctx1,stim_key_remap_ctx2,Instr_Exp_Text.started,Instr_Exp_Text.stopped,Instr_Exp_Key.keys,Instr_Exp_Key.rt,Instr_Exp_Key.started,Instr_Exp_Key.stopped,instr_HAND_TR_text.started,instr_HAND_TR_text.stopped,Instr_HAND_TR_press.keys,Instr_HAND_TR_press.rt,Instr_HAND_TR_press.started,Instr_HAND_TR_press.stopped,Instr_Block_Num_Text.started,Instr_Block_Num_Text.stopped,Instr_Block_Num_Press.keys,Instr_Block_Num_Press.rt,Instr_Block_Num_Press.started,Instr_Block_Num_Press.stopped,Pre_Trial_Circle_Frame.started,Pre_Trial_Circle_Frame.stopped,Pre_Trial_HandShape.started,Pre_Trial_HandShape.stopped,TR_Circle_Hand.started,TR_Circle_Hand.stopped,TR_Circle_Frame_Hand.started,TR_Circle_Frame_Hand.stopped,TR_HandShape.started,TR_HandShape.stopped,TR_Stim_Hand.started,TR_Stim_Hand.stopped,TR_Press_Hand.keys,TR_Press_Hand.corr,TR_Press_Hand.rt,TR_Press_Hand.started,TR_Press_Hand.stopped,Tr_Circle_Frame_Feedback.started,Tr_Circle_Frame_Feedback.stopped,TR_Feedback_Text.started,TR_Feedback_Text.stopped,TR_Feedback_Image.started,TR_Feedback_Image.stopped,Symbol,Ctx,Color,Stim_Num,Key_Num,Stim_Type,Finger,Block_Type,Remap,Repeat_Count,Trial_Count,Grp,Block_Num,Prep_Time,Actual_Press,RT,Correct,Session,Post_Trial_Circle_Frame.started,Post_Trial_Circle_Frame.stopped,Post_Trial_HandShape.started,Post_Trial_HandShape.stopped,participant,session,date,expName,psychopyVersion,frameRate,
0,h,"[1, -1, -1]",0,media/dcnb.png,-0.038,0.075,media/hand.png,media/check.png,media/cross.png,0,0,0,0,,,,,,,,,,,,,,,,,,,,,,,,,,,,,"(0, 1)","(1, 0)","[1, 0]","[0, 1]",,,,,,,,,,,,,,,,,,,,,,,,,,,,,,,,,,,,,,,,,,,,,,,,,,,,,,,,,,,,,,,,1,1,2020_Dec_29_2251,Context_Learning_Pilot,2020.1.3,60.227902379124025,
1,u,"[-1, 1, -1]",1,media/dfnb.png,0.014,0.1,None,None,None,0,1,1,1,,,,,,,,,,,,,,,,,,,,,,,,,,,,,"(0, 1)","(1, 0)","[1, 0]","[0, 1]",,,,,,,,,,,,,,,,,,,,,,,,,,,,,,,,,,,,,,,,,,,,,,,,,,,,,,,,,,,,,,,,1,1,2020_Dec_29_2251,Context_Learning_Pilot,2020.1.3,60.227902379124025,
2,h,None,0,media/dbnb.png,0.057,0.08,None,None,None,0,2,2,2,,,,,,,,,,,,,,,,,,,,,,,,,,,,,"(0, 1)","(1, 0)","[1, 0]","[0, 1]",,,,,,,,,,,,,,,,,,,,,,,,,,,,,,,,,,,,,,,,,,,,,,,,,,,,,,,,,,,,,,,,1,1,2020_Dec_29_2251,Context_Learning_Pilot,2020.1.3,60.227902379124025,
3,u,None,1,media/dknb.png,0.1,0.04,None,None,None,0,3,3,3,,,,,,,,,,,,,,,,,,,,,,,,,,,,,"(0, 1)","(1, 0)","[1, 0]","[0, 1]",,,,,,,,,,,,,,,,,,,,,,,,,,,,,,,,,,,,,,,,,,,,,,,,,,,,,,,,,,,,,,,,1,1,2020_Dec_29_2251,Context_Learning_Pilot,2020.1.3,60.227902379124025,
,,,,,,,,,,,,,,,,,,,,,,0,0,0,0,0,0,0,0,0,0,0,0,,,,,,,,,,,,,8.381913299905136,None,space,0.8394158000592142,8.381913299905136,None,9.271797599969432,None,h,0.3658880000002682,9.271797599969432,None,9.665062599931844,None,h,0.5658310999860987,9.665062599931844,None,10.36837879999075,None,10.36837879999075,None,10.522481599939056,None,10.522481599939056,None,10.522481599939056,None,10.627536099986173,None,h,1,1.2755398999433964,10.522481599939056,None,11.891098499996588,None,11.891098499996588,None,11.891098499996588,None,0,0,"[99, 99, 99]",0,0,Hand,h,TR,0,0,1,1,1,1.176066516835058,h,1.2755398999433964,1,1,12.240619899937883,None,12.240619899937883,None,1,1,2020_Dec_29_2251,Context_Learning_Pilot,2020.1.3,60.227902379124025,
,,,,,,,,,,,,,,,,,,,,,,0,0,0,0,0,0,0,0,1,0,1,0,,,,,,,,,,,,,,,,,,,,,,,,,,,,,,,12.351040699984878,None,12.351040699984878,None,12.46771729993634,None,12.46771729993634,None,12.46771729993634,None,13.02890449995175,None,u,1,1.297733400017023,12.46771729993634,None,13.802198399906047,None,13.802198399906047,None,13.802198399906047,None,1,0,"[99, 99, 99]",1,1,Hand,u,TR,0,0,2,1,1,0.7389803640432946,u,1.297733400017023,1,1,14.135915499995463,None,14.135915499995463,None,1,1,2020_Dec_29_2251,Context_Learning_Pilot,2020.1.3,60.227902379124025,
,,,,,,,,,,,,,,,,,,,,,,0,0,0,0,0,0,0,0,2,0,2,0,,,,,,,,,,,,,,,,,,,,,,,,,,,,,,,14.254897499922663,None,14.254897499922663,None,14.380403899936937,None,14.380403899936937,None,14.380403899936937,None,None,None,h,0,1.312998800072819,14.380403899936937,None,15.738026999984868,None,15.738026999984868,None,15.738026999984868,None,1,0,"[99, 99, 99]",1,1,Hand,u,TR,0,0,3,1,1,-0.07609720444434687,h,1.312998800072819,0,1,16.050999799976125,None,16.050999799976125,None,1,1,2020_Dec_29_2251,Context_Learning_Pilot,2020.1.3,60.227902379124025,
,,,,,,,,,,,,,,,,,,,,,,0,0,0,0,0,0,0,0,3,0,3,0,,,,,,,,,,,,,,,,,,,,,,,,,,,,,,,16.167194699984975,None,16.167194699984975,None,16.28688949998468,None,16.28688949998468,None,16.28688949998468,None,17.310798699967563,None,h,1,1.462785999989137,16.28688949998468,None,17.78854879993014,None,17.78854879993014,None,17.78854879993014,None,0,0,"[99, 99, 99]",0,0,Hand,h,TR,0,0,4,1,1,0.2584872028508862,h,1.462785999989137,1,1,18.103262799908407,None,18.103262799908407,None,1,1,2020_Dec_29_2251,Context_Learning_Pilot,2020.1.3,60.227902379124025,
,,,,,,,,,,,,,,,,,,,,,,0,0,0,0,0,0,0,0,4,0,4,0,,,,,,,,,,,,,,,,,,,,,,,,,,,,,,,18.216902799904346,None,18.216902799904346,None,18.334399099927396,None,18.334399099927396,None,18.334399099927396,None,18.944002599921077,None,h,1,1.2629682999104261,18.334399099927396,None,19.638825599919073,None,19.638825599919073,None,19.638825599919073,None,0,0,"[99, 99, 99]",0,0,Hand,h,TR,0,0,5,1,1,0.6921415725231765,h,1.2629682999104261,1,1,19.950295499991626,None,19.950295499991626,None,1,1,2020_Dec_29_2251,Context_Learning_Pilot,2020.1.3,60.227902379124025,
,,,,,,,,,,,,,,,,,,,,,,0,0,0,0,0,0,0,0,5,0,5,0,,,,,,,,,,,,,,,,,,,,,,,,,,,,,,,20.066271299961954,None,20.066271299961954,None,20.183051600004546,None,20.183051600004546,None,20.183051600004546,None,21.196513599948958,None,u,0,1.3344296000432223,20.183051600004546,None,21.559200699906796,None,21.559200699906796,None,21.559200699906796,None,0,0,"[99, 99, 99]",0,0,Hand,h,TR,0,0,6,1,1,0.2875577205882973,u,1.3344296000432223,0,1,21.876061799935997,None,21.876061799935997,None,1,1,2020_Dec_29_2251,Context_Learning_Pilot,2020.1.3,60.227902379124025,
,,,,,,,,,,,,,,,,,,,,,,0,0,0,0,0,0,0,0,6,0,6,0,,,,,,,,,,,,,,,,,,,,,,,,,,,,,,,21.983134899986908,None,21.983134899986908,None,22.106993699911982,None,22.106993699911982,None,22.106993699911982,None,22.82746489997953,None,u,1,1.3144987999694422,22.106993699911982,None,23.45927250001114,None,23.45927250001114,None,23.45927250001114,None,1,0,"[99, 99, 99]",1,1,Hand,u,TR,0,0,7,1,1,0.5619755792851285,u,1.3144987999694422,1,1,23.766288599930704,None,23.766288599930704,None,1,1,2020_Dec_29_2251,Context_Learning_Pilot,2020.1.3,60.227902379124025,
,,,,,,,,,,,,,,,,,,,,,,0,0,0,0,0,0,0,0,7,0,7,0,,,,,,,,,,,,,,,,,,,,,,,,,,,,,,,23.880836799973622,None,23.880836799973622,None,24.0011000999948,None,24.0011000999948,None,24.0011000999948,None,24.27750709990505,None,u,1,1.28452660003677,24.0011000999948,None,25.3323561999714,None,25.3323561999714,None,25.3323561999714,None,1,0,"[99, 99, 99]",1,1,Hand,u,TR,0,0,8,1,1,1.0005569449085834,u,1.28452660003677,1,1,25.649600900011137,None,25.649600900011137,None,1,1,2020_Dec_29_2251,Context_Learning_Pilot,2020.1.3,60.227902379124025,
,,,,,,,,,,,,,,,,,,,,,,0,0,0,0,0,0,0,0,8,0,8,0,,,,,,,,,,,,,,,,,,,,,,,,,,,,,,,25.765930199995637,None,25.765930199995637,None,25.883962799911387,None,25.883962799911387,None,25.883962799911387,None,26.227795199956745,None,h,1,1.249501399928704,25.883962799911387,None,27.17216209997423,None,27.17216209997423,None,27.17216209997423,None,0,0,"[99, 99, 99]",0,0,Hand,h,TR,0,0,9,1,1,0.9600179042766468,h,1.249501399928704,1,1,27.483077500015497,None,27.483077500015497,None,1,1,2020_Dec_29_2251,Context_Learning_Pilot,2020.1.3,60.227902379124025,
,,,,,,,,,,,,,,,,,,,,,,0,0,0,0,0,0,0,0,9,0,9,0,,,,,,,,,,,,,,,,,,,,,,,,,,,,,,,27.60058919992298,None,27.60058919992298,None,27.717493999982253,None,27.717493999982253,None,27.717493999982253,None,28.21078719990328,None,u,1,1.3606370000634342,27.717493999982253,None,29.104032899951562,None,29.104032899951562,None,29.104032899951562,None,1,0,"[99, 99, 99]",1,1,Hand,u,TR,0,0,10,1,1,0.8022412691251326,u,1.3606370000634342,1,1,29.430126199964434,None,29.430126199964434,None,1,1,2020_Dec_29_2251,Context_Learning_Pilot,2020.1.3,60.227902379124025,
,,,,,,,,,,,,,,,,,,,,,,0,0,0,0,0,0,0,0,10,0,10,0,,,,,,,,,,,,,,,,,,,,,,,,,,,,,,,29.548450300004333,None,29.548450300004333,None,29.67251770000439,None,29.67251770000439,None,29.67251770000439,None,30.061181399971247,None,h,1,1.2611623000120744,29.67251770000439,None,30.96928769990336,None,30.96928769990336,None,30.96928769990336,None,0,0,"[99, 99, 99]",0,0,Hand,h,TR,0,0,11,1,1,0.8937361766512493,h,1.2611623000120744,1,1,31.285139399929903,None,31.285139399929903,None,1,1,2020_Dec_29_2251,Context_Learning_Pilot,2020.1.3,60.227902379124025,
,,,,,,,,,,,,,,,,,,,,,,0,0,0,0,0,0,0,0,11,0,11,0,,,,,,,,,,,,,,,,,,,,,,,,,,,,,,,31.39970780001022,None,31.39970780001022,None,31.519190199906006,None,31.519190199906006,None,31.519190199906006,None,31.710812599980272,None,u,1,1.1982159999897704,31.519190199906006,None,32.760444100014865,None,32.760444100014865,None,32.760444100014865,None,1,0,"[99, 99, 99]",1,1,Hand,u,TR,0,0,12,1,1,1.0920967344185195,u,1.1982159999897704,1,1,33.06916829990223,None,33.06916829990223,None,1,1,2020_Dec_29_2251,Context_Learning_Pilot,2020.1.3,60.227902379124025,
,,,,,,,,,,,,,,,,,,,,,,0,0,0,0,0,0,0,0,12,0,12,0,,,,,,,,,,,,,,,,,,,,,,,,,,,,,,,33.19040610000957,None,33.19040610000957,None,33.32022919994779,None,33.32022919994779,None,33.32022919994779,None,34.24401709996164,None,u,1,1.253138400032185,33.32022919994779,None,34.608740699943155,None,34.608740699943155,None,34.608740699943155,None,1,0,"[99, 99, 99]",1,1,Hand,u,TR,0,0,13,1,1,0.3834194681340929,u,1.253138400032185,1,1,34.91686279990245,None,34.91686279990245,None,1,1,2020_Dec_29_2251,Context_Learning_Pilot,2020.1.3,60.227902379124025,
,,,,,,,,,,,,,,,,,,,,,,0,0,0,0,0,0,0,0,13,0,13,0,,,,,,,,,,,,,,,,,,,,,,,,,,,,,,,35.03240579995327,None,35.03240579995327,None,35.15017879998777,None,35.15017879998777,None,35.15017879998777,None,35.76098879997153,None,h,1,1.263207699987106,35.15017879998777,None,36.45294250000734,None,36.45294250000734,None,36.45294250000734,None,0,0,"[99, 99, 99]",0,0,Hand,h,TR,0,0,14,1,1,0.6848284179338584,h,1.263207699987106,1,1,36.76649299997371,None,36.76649299997371,None,1,1,2020_Dec_29_2251,Context_Learning_Pilot,2020.1.3,60.227902379124025,
,,,,,,,,,,,,,,,,,,,,,,0,0,0,0,0,0,0,0,14,0,14,0,,,,,,,,,,,,,,,,,,,,,,,,,,,,,,,36.887220899923705,None,36.887220899923705,None,36.99933779996354,None,36.99933779996354,None,36.99933779996354,None,37.54432609991636,None,h,1,1.2387954000150785,36.99933779996354,None,38.276694100000896,None,38.276694100000896,None,38.276694100000896,None,0,0,"[99, 99, 99]",0,0,Hand,h,TR,0,0,15,1,1,0.7507117906207386,h,1.2387954000150785,1,1,38.58692609996069,None,38.58692609996069,None,1,1,2020_Dec_29_2251,Context_Learning_Pilot,2020.1.3,60.227902379124025,
,,,,,,,,,,,,,,,,,,,,,,0,0,0,0,0,0,0,0,15,0,15,0,,,,,,,,,,,,,,,,,,,,,,,,,,,,,,,38.70754410000518,None,38.70754410000518,None,38.82053309993353,None,38.82053309993353,None,38.82053309993353,None,39.87771269993391,None,h,1,1.2571099000051618,38.82053309993353,None,40.10536919999868,None,40.10536919999868,None,40.10536919999868,None,0,0,"[99, 99, 99]",0,0,Hand,h,TR,0,0,16,1,1,0.22278503281422313,h,1.2571099000051618,1,1,40.41632519999985,None,40.41632519999985,None,1,1,2020_Dec_29_2251,Context_Learning_Pilot,2020.1.3,60.227902379124025,
,,,,,,,,,,,,,,,,,,,,,,0,0,0,0,0,0,0,0,16,0,16,0,,,,,,,,,,,,,,,,,,,,,,,,,,,,,,,40.533102899906226,None,40.533102899906226,None,40.65218609990552,None,40.65218609990552,None,40.65218609990552,None,41.91105549992062,None,h,0,1.3534357999451458,40.65218609990552,None,42.070558300009,None,42.070558300009,None,42.070558300009,None,1,0,"[99, 99, 99]",1,1,Hand,u,TR,0,0,17,1,1,0.020444526554083575,h,1.3534357999451458,0,1,42.38245649996679,None,42.38245649996679,None,1,1,2020_Dec_29_2251,Context_Learning_Pilot,2020.1.3,60.227902379124025,
,,,,,,,,,,,,,,,,,,,,,,0,0,0,0,0,0,0,0,17,0,17,0,,,,,,,,,,,,,,,,,,,,,,,,,,,,,,,42.514783399994485,None,42.514783399994485,None,42.64142949995585,None,42.64142949995585,None,42.64142949995585,None,42.86226729990449,None,u,1,1.3002042999723926,42.64142949995585,None,43.970288199954666,None,43.970288199954666,None,43.970288199954666,None,1,0,"[99, 99, 99]",1,1,Hand,u,TR,0,0,18,1,1,1.0767415090315855,u,1.3002042999723926,1,1,44.28248239995446,None,44.28248239995446,None,1,1,2020_Dec_29_2251,Context_Learning_Pilot,2020.1.3,60.227902379124025,
,,,,,,,,,,,,,,,,,,,,,,0,0,0,0,0,0,0,0,18,0,18,0,,,,,,,,,,,,,,,,,,,,,,,,,,,,,,,44.403470899909735,None,44.403470899909735,None,44.53433709999081,None,44.53433709999081,None,44.53433709999081,None,45.02799370000139,None,h,1,1.2472519000293687,44.53433709999081,None,45.82309439999517,None,45.82309439999517,None,45.82309439999517,None,0,0,"[99, 99, 99]",0,0,Hand,h,TR,0,0,19,1,1,0.8035173378442036,h,1.2472519000293687,1,1,46.134007999906316,None,46.134007999906316,None,1,1,2020_Dec_29_2251,Context_Learning_Pilot,2020.1.3,60.227902379124025,
,,,,,,,,,,,,,,,,,,,,,,0,0,0,0,0,0,0,0,19,0,19,0,,,,,,,,,,,,,,,,,,,,,,,,,,,,,,,46.25569679995533,None,46.25569679995533,None,46.37214230000973,None,46.37214230000973,None,46.37214230000973,None,None,None,h,0,1.2334633999271318,46.37214230000973,None,47.64223919995129,None,47.64223919995129,None,47.64223919995129,None,1,0,"[99, 99, 99]",1,1,Hand,u,TR,0,0,20,1,1,0.017294886253469866,h,1.2334633999271318,0,1,47.947999299969524,None,47.947999299969524,None,1,1,2020_Dec_29_2251,Context_Learning_Pilot,2020.1.3,60.227902379124025,
,,,,,,,,,,,,,,,,,,,,,,0,0,0,0,0,0,0,0,20,0,20,0,,,,,,,,,,,,,,,,,,,,,,,,,,,,,,,48.059097399935126,None,48.059097399935126,None,48.17239379999228,None,48.17239379999228,None,48.17239379999228,None,48.311159499920905,None,h,1,1.2091234000399709,48.17239379999228,None,49.424705599900335,None,49.424705599900335,None,49.424705599900335,None,0,0,"[99, 99, 99]",0,0,Hand,h,TR,0,0,21,1,1,1.1439150712019388,h,1.2091234000399709,1,1,49.73729939991608,None,49.73729939991608,None,1,1,2020_Dec_29_2251,Context_Learning_Pilot,2020.1.3,60.227902379124025,
,,,,,,,,,,,,,,,,,,,,,,0,0,0,0,0,0,0,0,21,0,21,0,,,,,,,,,,,,,,,,,,,,,,,,,,,,,,,49.849203099962324,None,49.849203099962324,None,49.96995269996114,None,49.96995269996114,None,49.96995269996114,None,50.27791419997811,None,u,1,1.227602900005877,49.96995269996114,None,51.23961509997025,None,51.23961509997025,None,51.23961509997025,None,1,0,"[99, 99, 99]",1,1,Hand,u,TR,0,0,22,1,1,0.9739007948125676,u,1.227602900005877,1,1,51.55203329992946,None,51.55203329992946,None,1,1,2020_Dec_29_2251,Context_Learning_Pilot,2020.1.3,60.227902379124025,
,,,,,,,,,,,,,,,,,,,,,,0,0,0,0,0,0,0,0,22,0,22,0,,,,,,,,,,,,,,,,,,,,,,,,,,,,,,,51.66736059996765,None,51.66736059996765,None,51.78384669998195,None,51.78384669998195,None,51.78384669998195,None,52.061591299949214,None,u,1,1.1816977000562474,51.78384669998195,None,53.00581819994841,None,53.00581819994841,None,53.00581819994841,None,1,0,"[99, 99, 99]",1,1,Hand,u,TR,0,0,23,1,1,1.0212581875438582,u,1.1816977000562474,1,1,53.31704939994961,None,53.31704939994961,None,1,1,2020_Dec_29_2251,Context_Learning_Pilot,2020.1.3,60.227902379124025,
,,,,,,,,,,,,,,,,,,,,,,0,0,0,0,0,0,0,0,23,0,23,0,,,,,,,,,,,,,,,,,,,,,,,,,,,,,,,53.441433299914934,None,53.441433299914934,None,53.56393289996777,None,53.56393289996777,None,53.56393289996777,None,54.51094519998878,None,h,1,1.21012319996953,53.56393289996777,None,54.816067799925804,None,54.816067799925804,None,54.816067799925804,None,0,0,"[99, 99, 99]",0,0,Hand,h,TR,0,0,24,1,1,0.3424273944722027,h,1.21012319996953,1,1,55.13973799999803,None,55.13973799999803,None,1,1,2020_Dec_29_2251,Context_Learning_Pilot,2020.1.3,60.227902379124025,
,,,,,,,,,,,,,,,,,,,,,,0,0,0,0,0,0,0,0,24,0,24,0,,,,,,,,,,,,,,,,,,,,,,,,,,,,,,,55.250013199984096,None,55.250013199984096,None,55.37481429998297,None,55.37481429998297,None,55.37481429998297,None,56.644719169917515,None,h,0,1.2387802000157535,55.37481429998297,None,56.65709569992032,None,56.65709569992032,None,56.65709569992032,None,1,0,"[99, 99, 99]",1,1,Hand,u,TR,0,0,25,1,1,0.016922246660600493,h,1.2387802000157535,0,1,56.96757999993861,None,56.96757999993861,None,1,1,2020_Dec_29_2251,Context_Learning_Pilot,2020.1.3,60.227902379124025,
,,,,,,,,,,,,,,,,,,,,,,0,0,0,0,0,0,0,0,25,0,25,0,,,,,,,,,,,,,,,,,,,,,,,,,,,,,,,57.08316559996456,None,57.08316559996456,None,57.200482399901375,None,57.200482399901375,None,57.200482399901375,None,57.59494310000446,None,u,1,1.22905449999962,57.200482399901375,None,58.47001920000184,None,58.47001920000184,None,58.47001920000184,None,1,0,"[99, 99, 99]",1,1,Hand,u,TR,0,0,26,1,1,0.9103518580180121,u,1.22905449999962,1,1,58.79331330000423,None,58.79331330000423,None,1,1,2020_Dec_29_2251,Context_Learning_Pilot,2020.1.3,60.227902379124025,
,,,,,,,,,,,,,,,,,,,,,,0,0,0,0,0,0,0,0,26,0,26,0,,,,,,,,,,,,,,,,,,,,,,,,,,,,,,,58.915095899952576,None,58.915095899952576,None,59.03412879991811,None,59.03412879991811,None,59.03412879991811,None,59.22783330001403,None,h,1,1.259506699978374,59.03412879991811,None,60.323228499968536,None,60.323228499968536,None,60.323228499968536,None,0,0,"[99, 99, 99]",0,0,Hand,h,TR,0,0,27,1,1,1.1032352020013287,h,1.259506699978374,1,1,60.633497299975716,None,60.633497299975716,None,1,1,2020_Dec_29_2251,Context_Learning_Pilot,2020.1.3,60.227902379124025,
,,,,,,,,,,,,,,,,,,,,,,0,0,0,0,0,0,0,0,27,0,27,0,,,,,,,,,,,,,,,,,,,,,,,,,,,,,,,60.748328599962406,None,60.748328599962406,None,60.8682562999893,None,60.8682562999893,None,60.8682562999893,None,61.4779991999967,None,h,1,1.2265619999961928,60.8682562999893,None,62.12512809992768,None,62.12512809992768,None,62.12512809992768,None,0,0,"[99, 99, 99]",0,0,Hand,h,TR,0,0,28,1,1,0.6903844346499105,h,1.2265619999961928,1,1,62.43512199993711,None,62.43512199993711,None,1,1,2020_Dec_29_2251,Context_Learning_Pilot,2020.1.3,60.227902379124025,
,,,,,,,,,,,,,,,,,,,,,,0,0,0,0,0,0,0,0,28,0,28,0,,,,,,,,,,,,,,,,,,,,,,,,,,,,,,,62.55200669995975,None,62.55200669995975,None,62.669524399912916,None,62.669524399912916,None,62.669524399912916,None,63.56154419993982,None,h,1,1.2164539999794215,62.669524399912916,None,63.91907499998342,None,63.91907499998342,None,63.91907499998342,None,0,0,"[99, 99, 99]",0,0,Hand,h,TR,0,0,29,1,1,0.3910815813326801,h,1.2164539999794215,1,1,64.23749619990122,None,64.23749619990122,None,1,1,2020_Dec_29_2251,Context_Learning_Pilot,2020.1.3,60.227902379124025,
,,,,,,,,,,,,,,,,,,,,,,0,0,0,0,0,0,0,0,29,0,29,0,,,,,,,,,,,,,,,,,,,,,,,,,,,,,,,64.35021989990491,None,64.35021989990491,None,64.46786470001098,None,64.46786470001098,None,64.46786470001098,None,64.62791199993808,None,u,1,1.2345149000175297,64.46786470001098,None,65.74681059992872,None,65.74681059992872,None,65.74681059992872,None,1,0,"[99, 99, 99]",1,1,Hand,u,TR,0,0,30,1,1,1.1452110531369555,u,1.2345149000175297,1,1,66.06836489995476,None,66.06836489995476,None,1,1,2020_Dec_29_2251,Context_Learning_Pilot,2020.1.3,60.227902379124025,
,,,,,,,,,,,,,,,,,,,,,,0,0,0,0,0,0,0,0,30,0,30,0,,,,,,,,,,,,,,,,,,,,,,,,,,,,,,,66.18332209996879,None,66.18332209996879,None,66.30079879995901,None,66.30079879995901,None,66.30079879995901,None,66.91145079990383,None,u,1,1.2487289999844506,66.30079879995901,None,67.58808679995127,None,67.58808679995127,None,67.58808679995127,None,1,0,"[99, 99, 99]",1,1,Hand,u,TR,0,0,31,1,1,0.6879411026333178,u,1.2487289999844506,1,1,67.89848480001092,None,67.89848480001092,None,1,1,2020_Dec_29_2251,Context_Learning_Pilot,2020.1.3,60.227902379124025,
,,,,,,,,,,,,,,,,,,,,,,0,0,0,0,0,0,0,0,31,0,31,0,,,,,,,,,,,,,,,,,,,,,,,,,,,,,,,68.02413509995677,None,68.02413509995677,None,68.13388909993228,None,68.13388909993228,None,68.13388909993228,None,68.24504339997657,None,h,1,1.239717699936591,68.13388909993228,None,69.40298129990697,None,69.40298129990697,None,69.40298129990697,None,0,0,"[99, 99, 99]",0,0,Hand,h,TR,0,0,32,1,1,1.192313210934612,h,1.239717699936591,1,1,69.71769510000013,None,69.71769510000013,None,1,1,2020_Dec_29_2251,Context_Learning_Pilot,2020.1.3,60.227902379124025,
,,,,,,,,,,,,,,,,,,,,,,0,0,0,0,0,0,0,0,32,0,32,0,,,,,,,,,,,,,,,,,,,,,,,,,,,,,,,69.83474729990121,None,69.83474729990121,None,69.95217639999464,None,69.95217639999464,None,69.95217639999464,None,70.89464740001131,None,h,1,1.3173683000495657,69.95217639999464,None,71.30482369998936,None,71.30482369998936,None,71.30482369998936,None,0,0,"[99, 99, 99]",0,0,Hand,h,TR,0,0,33,1,1,0.35132727889556137,h,1.3173683000495657,1,1,71.61829059990123,None,71.61829059990123,None,1,1,2020_Dec_29_2251,Context_Learning_Pilot,2020.1.3,60.227902379124025,
,,,,,,,,,,,,,,,,,,,,,,0,0,0,0,0,0,0,0,33,0,33,0,,,,,,,,,,,,,,,,,,,,,,,,,,,,,,,71.7412430999102,None,71.7412430999102,None,71.85678599996027,None,71.85678599996027,None,71.85678599996027,None,72.47823809995316,None,u,1,1.1728506999788806,71.85678599996027,None,73.06070559995715,None,73.06070559995715,None,73.06070559995715,None,1,0,"[99, 99, 99]",1,1,Hand,u,TR,0,0,34,1,1,0.6700583557158563,u,1.1728506999788806,1,1,73.36730869999155,None,73.36730869999155,None,1,1,2020_Dec_29_2251,Context_Learning_Pilot,2020.1.3,60.227902379124025,
,,,,,,,,,,,,,,,,,,,,,,0,0,0,0,0,0,0,0,34,0,34,0,,,,,,,,,,,,,,,,,,,,,,,,,,,,,,,73.48616359999869,None,73.48616359999869,None,73.60565559996758,None,73.60565559996758,None,73.60565559996758,None,74.24461119994521,None,h,1,1.1838651000289246,73.60565559996758,None,74.82000680000056,None,74.82000680000056,None,74.82000680000056,None,0,0,"[99, 99, 99]",0,0,Hand,h,TR,0,0,35,1,1,0.6529569285203133,h,1.1838651000289246,1,1,75.1355973999016,None,75.1355973999016,None,1,1,2020_Dec_29_2251,Context_Learning_Pilot,2020.1.3,60.227902379124025,
,,,,,,,,,,,,,,,,,,,,,,0,0,0,0,0,0,0,0,35,0,35,0,,,,,,,,,,,,,,,,,,,,,,,,,,,,,,,75.24980379990302,None,75.24980379990302,None,75.36779379996005,None,75.36779379996005,None,75.36779379996005,None,75.49496189993806,None,u,1,1.245796600007452,75.36779379996005,None,76.65609720000066,None,76.65609720000066,None,76.65609720000066,None,1,0,"[99, 99, 99]",1,1,Hand,u,TR,0,0,36,1,1,1.1793605798976994,u,1.245796600007452,1,1,76.98575459991116,None,76.98575459991116,None,1,1,2020_Dec_29_2251,Context_Learning_Pilot,2020.1.3,60.227902379124025,
,,,,,,,,,,,,,,,,,,,,,,0,0,0,0,0,0,0,0,36,0,36,0,,,,,,,,,,,,,,,,,,,,,,,,,,,,,,,77.1002324000001,None,77.1002324000001,None,77.21535849990323,None,77.21535849990323,None,77.21535849990323,None,77.94497439998668,None,h,1,1.2542453999631107,77.21535849990323,None,78.51401009992696,None,78.51401009992696,None,78.51401009992696,None,0,0,"[99, 99, 99]",0,0,Hand,h,TR,0,0,37,1,1,0.5721416457801555,h,1.2542453999631107,1,1,78.83270829997491,None,78.83270829997491,None,1,1,2020_Dec_29_2251,Context_Learning_Pilot,2020.1.3,60.227902379124025,
,,,,,,,,,,,,,,,,,,,,,,0,0,0,0,0,0,0,0,37,0,37,0,,,,,,,,,,,,,,,,,,,,,,,,,,,,,,,78.95157679996919,None,78.95157679996919,None,79.06944069999736,None,79.06944069999736,None,79.06944069999736,None,80.29517659998965,None,u,1,1.24811329995282,79.06944069999736,None,80.35381619993132,None,80.35381619993132,None,80.35381619993132,None,1,0,"[99, 99, 99]",1,1,Hand,u,TR,0,0,38,1,1,0.0640303287610795,u,1.24811329995282,1,1,80.6685989999678,None,80.6685989999678,None,1,1,2020_Dec_29_2251,Context_Learning_Pilot,2020.1.3,60.227902379124025,
,,,,,,,,,,,,,,,,,,,,,,0,0,0,0,0,0,0,0,38,0,38,0,,,,,,,,,,,,,,,,,,,,,,,,,,,,,,,80.80045159999281,None,80.80045159999281,None,80.93438270001207,None,80.93438270001207,None,80.93438270001207,None,81.37830440001562,None,u,1,1.2153642000630498,80.93438270001207,None,82.19185179995839,None,82.19185179995839,None,82.19185179995839,None,1,0,"[99, 99, 99]",1,1,Hand,u,TR,0,0,39,1,1,0.862833976965619,u,1.2153642000630498,1,1,82.4998797000153,None,82.4998797000153,None,1,1,2020_Dec_29_2251,Context_Learning_Pilot,2020.1.3,60.227902379124025,
,,,,,,,,,,,,,,,,,,,,,,0,0,0,0,0,0,0,0,39,0,39,0,,,,,,,,,,,,,,,,,,,,,,,,,,,,,,,82.61721109994687,None,82.61721109994687,None,82.73371449997649,None,82.73371449997649,None,82.73371449997649,None,83.07911749999039,None,h,1,1.183891799999401,82.73371449997649,None,83.96808499994222,None,83.96808499994222,None,83.96808499994222,None,0,0,"[99, 99, 99]",0,0,Hand,h,TR,0,0,40,1,1,0.9515152255562052,h,1.183891799999401,1,1,84.28203859995119,None,84.28203859995119,None,1,1,2020_Dec_29_2251,Context_Learning_Pilot,2020.1.3,60.227902379124025,
,,,,,,,,,,,,,,,,,,,,,,0,0,0,0,0,0,0,0,40,0,40,0,,,,,,,,,,,,,,,,,,,,,,,,,,,,,,,84.4042062999215,None,84.4042062999215,None,84.51814509998076,None,84.51814509998076,None,84.51814509998076,None,85.61181459994987,None,u,1,1.3674052000278607,84.51814509998076,None,85.92218399990816,None,85.92218399990816,None,85.92218399990816,None,1,0,"[99, 99, 99]",1,1,Hand,u,TR,0,0,41,1,1,0.2069277517088708,u,1.3674052000278607,1,1,86.23222769994754,None,86.23222769994754,None,1,1,2020_Dec_29_2251,Context_Learning_Pilot,2020.1.3,60.227902379124025,
,,,,,,,,,,,,,,,,,,,,,,0,0,0,0,0,0,0,0,41,0,41,0,,,,,,,,,,,,,,,,,,,,,,,,,,,,,,,86.34969999990426,None,86.34969999990426,None,86.47214259998873,None,86.47214259998873,None,86.47214259998873,None,87.57944839994889,None,u,1,1.3015082000056282,86.47214259998873,None,87.80251840001438,None,87.80251840001438,None,87.80251840001438,None,1,0,"[99, 99, 99]",1,1,Hand,u,TR,0,0,42,1,1,0.17096351587653413,u,1.3015082000056282,1,1,88.11742049991153,None,88.11742049991153,None,1,1,2020_Dec_29_2251,Context_Learning_Pilot,2020.1.3,60.227902379124025,
,,,,,,,,,,,,,,,,,,,,,,0,0,0,0,0,0,0,0,42,0,42,0,,,,,,,,,,,,,,,,,,,,,,,,,,,,,,,88.24679559993092,None,88.24679559993092,None,88.37072319991421,None,88.37072319991421,None,88.37072319991421,None,88.49563159991521,None,h,1,1.2512914999388158,88.37072319991421,None,89.65335149993189,None,89.65335149993189,None,89.65335149993189,None,0,0,"[99, 99, 99]",0,0,Hand,h,TR,0,0,43,1,1,1.155377213073779,h,1.2512914999388158,1,1,89.9806270999834,None,89.9806270999834,None,1,1,2020_Dec_29_2251,Context_Learning_Pilot,2020.1.3,60.227902379124025,
,,,,,,,,,,,,,,,,,,,,,,0,0,0,0,0,0,0,0,43,0,43,0,,,,,,,,,,,,,,,,,,,,,,,,,,,,,,,90.10960029996932,None,90.10960029996932,None,90.22151790000498,None,90.22151790000498,None,90.22151790000498,None,91.19536669994704,None,u,0,1.184142299927771,90.22151790000498,None,91.46157189994119,None,91.46157189994119,None,91.46157189994119,None,0,0,"[99, 99, 99]",0,0,Hand,h,TR,0,0,44,1,1,0.30922567806878243,u,1.184142299927771,0,1,91.76858829997946,None,91.76858829997946,None,1,1,2020_Dec_29_2251,Context_Learning_Pilot,2020.1.3,60.227902379124025,
,,,,,,,,,,,,,,,,,,,,,,0,0,0,0,0,0,0,0,44,0,44,0,,,,,,,,,,,,,,,,,,,,,,,,,,,,,,,91.88630929996725,None,91.88630929996725,None,92.00226129998919,None,92.00226129998919,None,92.00226129998919,None,92.14509949996136,None,u,1,1.227135300054215,92.00226129998919,None,93.25720230001025,None,93.25720230001025,None,93.25720230001025,None,1,0,"[99, 99, 99]",1,1,Hand,u,TR,0,0,45,1,1,1.1376398811949542,u,1.227135300054215,1,1,93.56739879993256,None,93.56739879993256,None,1,1,2020_Dec_29_2251,Context_Learning_Pilot,2020.1.3,60.227902379124025,
,,,,,,,,,,,,,,,,,,,,,,0,0,0,0,0,0,0,0,45,0,45,0,,,,,,,,,,,,,,,,,,,,,,,,,,,,,,,93.69529269996565,None,93.69529269996565,None,93.80725209997036,None,93.80725209997036,None,93.80725209997036,None,95.0300082699163,None,h,1,1.1985852000070736,93.80725209997036,None,95.0557267999975,None,95.0557267999975,None,95.0557267999975,None,0,0,"[99, 99, 99]",0,0,Hand,h,TR,0,0,46,1,1,0.06194235965807304,h,1.1985852000070736,1,1,95.37327310000546,None,95.37327310000546,None,1,1,2020_Dec_29_2251,Context_Learning_Pilot,2020.1.3,60.227902379124025,
,,,,,,,,,,,,,,,,,,,,,,0,0,0,0,0,0,0,0,46,0,46,0,,,,,,,,,,,,,,,,,,,,,,,,,,,,,,,95.48509769991506,None,95.48509769991506,None,95.60443969990592,None,95.60443969990592,None,95.60443969990592,None,96.17942449997645,None,h,1,1.1532163999509066,95.60443969990592,None,96.79319279990159,None,96.79319279990159,None,96.79319279990159,None,0,0,"[99, 99, 99]",0,0,Hand,h,TR,0,0,47,1,1,0.7032147515479462,h,1.1532163999509066,1,1,97.10083309991751,None,97.10083309991751,None,1,1,2020_Dec_29_2251,Context_Learning_Pilot,2020.1.3,60.227902379124025,
,,,,,,,,,,,,,,,,,,,,,,0,0,0,0,0,0,0,0,47,0,47,0,,,,,,,,,,,,,,,,,,,,,,,,,,,,,,,97.2221661999356,None,97.2221661999356,None,97.33347730000969,None,97.33347730000969,None,97.33347730000969,None,97.5120449999813,None,u,1,1.1440848000347614,97.33347730000969,None,98.50379939994309,None,98.50379939994309,None,98.50379939994309,None,1,0,"[99, 99, 99]",1,1,Hand,u,TR,0,0,48,1,1,1.1150693261159552,u,1.1440848000347614,1,1,98.81691209995188,None,98.81691209995188,None,1,1,2020_Dec_29_2251,Context_Learning_Pilot,2020.1.3,60.227902379124025,
,,,,,,,,,,,,,,,,,,,,,,0,0,0,0,0,0,0,0,48,0,48,0,,,,,,,,,,,,,,,,,,,,,,,,,,,,,,,98.93429829995148,None,98.93429829995148,None,99.05166160000954,None,99.05166160000954,None,99.05166160000954,None,99.6617605999345,None,u,1,1.242563599953428,99.05166160000954,None,100.32518439996056,None,100.32518439996056,None,100.32518439996056,None,1,0,"[99, 99, 99]",1,1,Hand,u,TR,0,0,49,1,1,0.6819129445037515,u,1.242563599953428,1,1,100.65383209998254,None,100.65383209998254,None,1,1,2020_Dec_29_2251,Context_Learning_Pilot,2020.1.3,60.227902379124025,
,,,,,,,,,,,,,,,,,,,,,,0,0,0,0,0,0,0,0,49,0,49,0,,,,,,,,,,,,,,,,,,,,,,,,,,,,,,,100.7735031999182,None,100.7735031999182,None,100.89064609992784,None,100.89064609992784,None,100.89064609992784,None,101.36206529999617,None,h,1,1.2109664001036435,100.89064609992784,None,102.1463131000055,None,102.1463131000055,None,102.1463131000055,None,0,0,"[99, 99, 99]",0,0,Hand,h,TR,0,0,50,1,1,0.8137760623377785,h,1.2109664001036435,1,1,102.4730450999923,None,102.4730450999923,None,1,1,2020_Dec_29_2251,Context_Learning_Pilot,2020.1.3,60.227902379124025,
,,,,,,,,,,,,,,,,,,,,,,0,0,0,0,1,0,1,0,0,0,0,0,,,,,,,,,,,,,,,,,,,,,,,,,102.58153759990819,None,h,0.8321267999708652,102.58153759990819,None,103.45435789995827,None,103.45435789995827,None,103.56992119993083,None,103.56992119993083,None,103.56992119993083,None,104.69620209990535,None,u,1,1.243859100039117,103.56992119993083,None,104.85573209996801,None,104.85573209996801,None,104.85573209996801,None,1,0,"[99, 99, 99]",1,1,Hand,u,TR,0,0,1,1,2,0.15503483265655538,u,1.243859100039117,1,1,105.17271909990814,None,105.17271909990814,None,1,1,2020_Dec_29_2251,Context_Learning_Pilot,2020.1.3,60.227902379124025,
,,,,,,,,,,,,,,,,,,,,,,0,0,0,0,1,0,1,0,1,0,1,0,,,,,,,,,,,,,,,,,,,,,,,,,,,,,,,105.29378119995818,None,105.29378119995818,None,105.40068520000204,None,105.40068520000204,None,105.40068520000204,None,106.09514849993866,None,h,1,1.221339000039734,105.40068520000204,None,106.65385489992332,None,106.65385489992332,None,106.65385489992332,None,0,0,"[99, 99, 99]",0,0,Hand,h,TR,0,0,2,1,2,0.6018357291963006,h,1.221339000039734,1,1,106.9733648999827,None,106.9733648999827,None,1,1,2020_Dec_29_2251,Context_Learning_Pilot,2020.1.3,60.227902379124025,
,,,,,,,,,,,,,,,,,,,,,,0,0,0,0,1,0,1,0,2,0,2,0,,,,,,,,,,,,,,,,,,,,,,,,,,,,,,,107.083433499909,None,107.083433499909,None,107.20119449996855,None,107.20119449996855,None,107.20119449996855,None,107.64544029999524,None,h,1,1.1964604000095278,107.20119449996855,None,108.44843869993929,None,108.44843869993929,None,108.44843869993929,None,0,0,"[99, 99, 99]",0,0,Hand,h,TR,0,0,3,1,2,0.8482288242499219,h,1.1964604000095278,1,1,108.77394799992908,None,108.77394799992908,None,1,1,2020_Dec_29_2251,Context_Learning_Pilot,2020.1.3,60.227902379124025,
,,,,,,,,,,,,,,,,,,,,,,0,0,0,0,1,0,1,0,3,0,3,0,,,,,,,,,,,,,,,,,,,,,,,,,,,,,,,108.88721690000966,None,108.88721690000966,None,109.00122019997798,None,109.00122019997798,None,109.00122019997798,None,109.62881139991805,None,u,1,1.1804124000482261,109.00122019997798,None,110.21993029990699,None,110.21993029990699,None,110.21993029990699,None,1,0,"[99, 99, 99]",1,1,Hand,u,TR,0,0,4,1,2,0.6704250475125234,u,1.1804124000482261,1,1,110.53372770000715,None,110.53372770000715,None,1,1,2020_Dec_29_2251,Context_Learning_Pilot,2020.1.3,60.227902379124025,
,,,,,,,,,,,,,,,,,,,,,,0,0,0,0,1,0,1,0,4,0,4,0,,,,,,,,,,,,,,,,,,,,,,,,,,,,,,,110.65748419996817,None,110.65748419996817,None,110.78139809996355,None,110.78139809996355,None,110.78139809996355,None,111.24655899999198,None,h,1,1.2564786999719217,110.78139809996355,None,112.086845099926,None,112.086845099926,None,112.086845099926,None,0,0,"[99, 99, 99]",0,0,Hand,h,TR,0,0,5,1,2,0.8224404638793493,h,1.2564786999719217,1,1,112.40161639999133,None,112.40161639999133,None,1,1,2020_Dec_29_2251,Context_Learning_Pilot,2020.1.3,60.227902379124025,
,,,,,,,,,,,,,,,,,,,,,,0,0,0,0,1,0,1,0,5,0,5,0,,,,,,,,,,,,,,,,,,,,,,,,,,,,,,,112.51792269991711,None,112.51792269991711,None,112.63532459991984,None,112.63532459991984,None,112.63532459991984,None,112.77883289998863,None,u,1,1.2112202999414876,112.63532459991984,None,113.87201910000294,None,113.87201910000294,None,113.87201910000294,None,1,0,"[99, 99, 99]",1,1,Hand,u,TR,0,0,6,1,2,1.1509317279882996,u,1.2112202999414876,1,1,114.19725689990446,None,114.19725689990446,None,1,1,2020_Dec_29_2251,Context_Learning_Pilot,2020.1.3,60.227902379124025,
,,,,,,,,,,,,,,,,,,,,,,,,,,,,,,,,,,,,,,,,,,,,,,,,,,,,,,,,,,,,,,,,114.31725079996977,None,114.31725079996977,None,,,,,,,,,,,,,,,,,,,,,,,,,,,,,,,,,,,,,,,,,,,,,,,,
